path1,path2,path3,path4,word1,word2,word3,word4,delay,index,practiceTrial.thisRepN,practiceTrial.thisTrialN,practiceTrial.thisN,practiceTrial.thisIndex,trials.thisRepN,trials.thisTrialN,trials.thisN,trials.thisIndex,thisRow.t,notes,welcomeScreen.started,text.started,textbox.started,text.stopped,welcomeScreen.stopped,start_resp.keys,start_resp.rt,start_resp.duration,practiceSesh.started,practiceText.started,key_resp.started,practiceSesh.stopped,key_resp.keys,key_resp.rt,key_resp.duration,trialStart.started,text_3.started,text_4.started,trialStart.stopped,firstWord.started,firstW.started,polygon.started,firstW.stopped,polygon.stopped,firstWord.stopped,secondWord.started,secondW.started,secondW.stopped,polygon_2.started,polygon_2.stopped,secondWord.stopped,thirdWord.started,thirdW.started,thirdW.stopped,polygon_3.started,polygon_3.stopped,thirdWord.stopped,fourthWord.started,fourthW.started,sound_1.started,fourthW.stopped,fourthWord.stopped,response.started,text_6.started,key_resp_2.started,response.stopped,key_resp_2.keys,key_resp_2.rt,key_resp_2.duration,trialEnd.started,text_8.started,text_8.stopped,trialEnd.stopped,text_3.stopped,text_4.stopped,experimentStart.started,text_7.started,key_resp_3.started,experimentStart.stopped,key_resp_3.keys,key_resp_3.rt,key_resp_3.duration,EndScreen.started,text_5.started,text_5.stopped,EndScreen.stopped,participant,session,date,expName,psychopyVersion,frameRate,expStart,
,,,,,,,,,,,,,,,,,,,,0.003226800006814301,0.031533800065517426,4.014900199952535,4.031524599995464,54.75660520000383,space,50.74006229999941,None,,,,,,,,,,,,,,,,,,,,,,,,,,,,,,,,,,,,,,,,,,,,,,,,,,,,,,,,,,,1,001,2023-11-28_23h17.24.636,pitch_toj,2023.2.3,59.897132662053274,2023-11-28 23h17.46.027381 +0530,
,,,,,,,,,,,,,,,,,,,,,,,,,,,,54.75663740001619,54.77186079998501,54.77186079998501,57.17313540005125,space,2.394573000026867,None,,,,,,,,,,,,,,,,,,,,,,,,,,,,,,,,,,,,,,,,,,,,,,,,,,,,1,001,2023-11-28_23h17.24.636,pitch_toj,2023.2.3,59.897132662053274,2023-11-28 23h17.46.027381 +0530,
audio\set_12\card_en-IN-Standard-A.wav,audio\set_12\yard_en-IN-Standard-A.wav,audio\set_12\yards_en-IN-Standard-A.wav,audio\set_12\bard_en-IN-Standard-A.wav,card,yard,yards,bard,200,,0,0,0,0,,,,,57.19280640000943,,,,,,,,,,,,,,,,,57.180658400058746,57.19280640000943,57.19280640000943,60.1873902999796,60.1874202999752,60.20407800003886,62.18684320000466,62.20422850002069,62.68670620000921,62.67162290005945,62.67163800005801,62.68670620000921,64.6864730999805,64.6864730999805,65.18643860006705,65.17042019998189,65.17043920001015,65.18643860006705,67.18603019998409,67.18603019998409,67.6859095999971,67.67055300006177,67.67057119996753,67.6859095999971,0.21264509996399283,69.68575720000081,69.67054379999172,69.6705977000529,69.68575720000081,69.68575720000081,77.6184633000521,n,7.916438200045377,None,77.61902540002484,77.63382129999809,79.13368109997828,79.11765160004143,,,,,,,,,,,,,,1,001,2023-11-28_23h17.24.636,pitch_toj,2023.2.3,59.897132662053274,2023-11-28 23h17.46.027381 +0530,
audio\set_12\card_en-IN-Standard-X.wav,audio\set_12\yard_en-IN-Standard-X.wav,audio\set_12\yards_en-IN-Standard-X.wav,audio\set_12\bard_en-IN-Standard-X.wav,card,yard,yards,bard,900,,0,1,1,2,,,,,79.13368109997828,,,,,,,,,,,,,,,,,79.1179791999748,79.13368109997828,79.13368109997828,82.11711970006581,82.11713510006666,82.13318879995495,84.13362450001296,84.13362450001296,,84.63353960006498,84.63355400005821,84.64939899998717,86.64977799996268,86.63205110002309,87.13203290000092,87.1162258000113,87.11624200001825,87.13203290000092,89.1323190999683,89.1323190999683,89.63174930005334,89.6164703000104,89.6164866000181,89.63174930005334,0.9130671999882907,91.63117519998923,91.61551499995403,91.61553820001427,91.63117519998923,91.63117519998923,96.26481379999314,n,4.625491000013426,None,96.26509730005637,96.28042920003645,97.78007350000553,97.76414440001827,82.13318879995495,82.13318879995495,,,,,,,,,,,,1,001,2023-11-28_23h17.24.636,pitch_toj,2023.2.3,59.897132662053274,2023-11-28 23h17.46.027381 +0530,
audio\set_12\card_en-IN-Standard-C.wav,audio\set_12\yard_en-IN-Standard-C.wav,audio\set_12\yards_en-IN-Standard-C.wav,audio\set_12\bard_en-IN-Standard-C.wav,card,yard,yards,bard,600,,0,2,2,1,,,,,97.78007350000553,,,,,,,,,,,,,,,,,97.76441980001982,97.78007350000553,97.78007350000553,100.76347979996353,100.76349449995905,100.7795106000267,102.78005850000773,102.78005850000773,103.27889399998821,103.2640301999636,103.26406169997063,103.27889399998821,105.27856160001829,105.27856160001829,105.77857780002523,105.76349919999484,105.76351449999493,105.77857780002523,107.77902969997376,107.77902969997376,,108.27900650002994,108.27902070002165,108.29453099996317,0.6127842999994755,110.29422060004435,110.27827969996724,110.27830270002596,110.29422060004435,110.29422060004435,114.01124829996843,n,3.7082164000021294,None,114.011619900004,114.02680710004643,115.5971273999894,115.51059560000431,100.7795106000267,100.7795106000267,,,,,,,,,,,,1,001,2023-11-28_23h17.24.636,pitch_toj,2023.2.3,59.897132662053274,2023-11-28 23h17.46.027381 +0530,
,,,,,,,,,,,,,,,,,,,,,,,,,,,,,,,,,,,,,,,,,,,,,,,,,,,,,,,,,,,,,,,,,,,,,,,,,,,115.5106761000352,115.5971273999894,117.52628680004273,121.56032699998468,space,4.031390400021337,None,,,,,1,001,2023-11-28_23h17.24.636,pitch_toj,2023.2.3,59.897132662053274,2023-11-28 23h17.46.027381 +0530,
audio\set_5\bat_en-IN-Standard-A.wav,audio\set_5\rat_en-IN-Standard-A.wav,audio\set_5\sat_en-IN-Standard-A.wav,audio\set_5\vat_en-IN-Standard-A.wav,bat,rat,sat,vat,500,3,,,,,0,0,0,3,121.585056800046,,,,,,,,,,,,,,,,,121.57768420001958,121.585056800046,121.585056800046,124.5748652999755,124.57487909996416,124.59148790000472,126.57440340006724,126.59155989997089,127.07436369999778,127.05834390001837,127.05836659995839,127.07436369999778,129.07485199999064,129.07485199999064,,129.57456590002403,129.57458000001498,129.59050100005697,131.59095039998647,131.57353589998093,132.0848858000245,132.05825670005288,132.05827300006058,132.0848858000245,0.5129467999795452,134.08967440004926,134.07419950002804,134.07423240004573,134.08967440004926,134.08967440004926,140.47300560004078,y,6.374578300048597,None,140.47352989995852,140.4884437000146,141.98805260006338,141.97222350002266,,,,,,,,,,,,,,1,001,2023-11-28_23h17.24.636,pitch_toj,2023.2.3,59.897132662053274,2023-11-28 23h17.46.027381 +0530,
audio\set_8\vow_en-IN-Standard-C.wav,audio\set_3\stain_en-IN-Standard-C.wav,audio\set_9\box_en-IN-Standard-C.wav,audio\set_6\dee_en-IN-Standard-C.wav,vow,stain,box,dee,1000,7,,,,,0,1,1,15,141.98805260006338,,,,,,,,,,,,,,,,,141.97250649996568,141.98805260006338,141.98805260006338,144.97189809998963,144.97191469999962,144.9877294000471,146.98784079996403,146.98784079996403,147.4870043999981,147.4711599999573,147.47117619996425,147.4870043999981,149.48667080001906,149.48667080001906,149.98650500003714,149.97152839996852,149.97155270003714,149.98650500003714,151.98611329996493,151.98611329996493,152.50863279995974,152.47012179996818,152.4701385999797,152.50863279995974,1.012654299964197,154.51904909999575,154.503127999953,154.5031500000041,154.51904909999575,154.51904909999575,156.06976290000603,n,1.5345126999309286,None,156.07019750005566,156.08573150006123,157.58504340006039,157.56933570001274,144.9877294000471,144.9877294000471,,,,,,,,,,,,1,001,2023-11-28_23h17.24.636,pitch_toj,2023.2.3,59.897132662053274,2023-11-28 23h17.46.027381 +0530,
audio\set_10\guy_en-IN-Standard-X.wav,audio\set_10\fly_en-IN-Standard-X.wav,"audio\set_10
igh_en-IN-Standard-X.wav",audio\set_10\guy_en-IN-Standard-X.wav,guy,fly,nigh,guy,0,0,,,,,0,2,2,16,157.58504340006039,,,,,,,,,,,,,,,,,157.56962109997403,157.58504340006039,157.58504340006039,160.5684683000436,160.5684833000414,160.5844097000081,162.58406370005105,162.58406370005105,163.08399880002253,163.06874450005125,163.06876030005515,163.08399880002253,165.08427510003094,165.08427510003094,165.58349059999455,165.5680465999758,165.56806239997968,165.58349059999455,167.58395290002227,167.58395290002227,168.08793449995574,168.06718640006147,168.0672222999856,168.08793449995574,0.013062199926935136,170.09926829999313,170.083679900039,170.0837043999927,170.09926829999313,170.09926829999313,173.48329550004564,y,3.3826957000419497,None,173.48363200004678,173.49853109999094,174.99865480000153,174.98338740004692,160.5844097000081,160.5844097000081,,,,,,,,,,,,1,001,2023-11-28_23h17.24.636,pitch_toj,2023.2.3,59.897132662053274,2023-11-28 23h17.46.027381 +0530,
audio\set_1\light_en-IN-Standard-C.wav,audio\set_1\might_en-IN-Standard-C.wav,audio\set_1\right_en-IN-Standard-C.wav,audio\set_1\fight_en-IN-Standard-C.wav,light,might,right,fight,200,1,,,,,0,3,3,9,174.99865480000153,,,,,,,,,,,,,,,,,174.98373690003064,174.99865480000153,174.99865480000153,177.98200439999346,177.982021600008,177.9976223000558,179.99744109995663,179.99744109995663,180.49750130006578,180.48217700002715,180.48219280003104,180.49750130006578,182.49693520006258,182.49693520006258,182.99690789997112,182.98169030004647,182.98170560004655,182.99690789997112,184.99642710003536,184.99642710003536,185.50028729997575,185.48040520003997,185.48042130004615,185.50028729997575,0.21349230001214892,187.51351840002462,187.49635260005016,187.4963773000054,187.51351840002462,187.51351840002462,189.19677909999155,y,1.673438800033182,None,189.19706160004716,189.2123768000165,190.71225620002951,190.69680599996354,177.9976223000558,177.9976223000558,,,,,,,,,,,,1,001,2023-11-28_23h17.24.636,pitch_toj,2023.2.3,59.897132662053274,2023-11-28 23h17.46.027381 +0530,
audio\set_2\mood_en-IN-Standard-A.wav,audio\set_2\good_en-IN-Standard-A.wav,audio\set_2\wood_en-IN-Standard-A.wav,audio\set_2\brood_en-IN-Standard-A.wav,mood,good,wood,brood,0,0,,,,,0,4,4,0,190.71225620002951,,,,,,,,,,,,,,,,,190.69728179997765,190.71225620002951,190.71225620002951,193.69553609995637,193.69555119995493,193.7113648999948,195.711089599994,195.711089599994,196.21104129997548,196.1949440999888,196.19495999999344,196.21104129997548,198.21052800002508,198.21052800002508,198.71033909998368,198.69556869997177,198.69558399997186,198.71033909998368,200.71083080000244,200.71083080000244,201.21950150001794,201.1944274000125,201.1944455000339,201.21950150001794,0.018101900001056492,203.2261293999618,203.21045350003988,203.21047609997913,203.2261293999618,203.2261293999618,204.07719550002366,y,0.8356833999278024,None,204.0774778999621,204.09284749999642,205.59244410006795,205.5774015999632,193.7113648999948,193.7113648999948,,,,,,,,,,,,1,001,2023-11-28_23h17.24.636,pitch_toj,2023.2.3,59.897132662053274,2023-11-28 23h17.46.027381 +0530,
audio\set_0\wheat_en-IN-Standard-X.wav,audio\set_0\wheat_en-IN-Standard-X.wav,audio\set_0\sleet_en-IN-Standard-X.wav,audio\set_0\deed_en-IN-Standard-X.wav,wheat,heat,sleet,deed,400,2,,,,,0,5,5,18,205.59244410006795,,,,,,,,,,,,,,,,,205.57770130003337,205.59244410006795,205.59244410006795,208.57593399996404,208.57594919996336,208.5918366999831,210.59155430004466,210.59155430004466,211.09133389999624,211.07632810005452,211.07634390005842,211.09133389999624,213.09108240006026,213.09108240006026,213.5908694000682,213.57582200004254,213.57583750004414,213.5908694000682,215.59065809997264,215.59065809997264,216.10814430005848,216.07445670000743,216.07449370005634,216.10814430005848,0.4133255999768153,218.12331499997526,218.1074335000012,218.10745620005764,218.12331499997526,218.12331499997526,219.70755349996034,n,1.5724926999537274,None,219.70790459995624,219.72299190005288,221.2226939999964,221.206767900032,208.5918366999831,208.5918366999831,,,,,,,,,,,,1,001,2023-11-28_23h17.24.636,pitch_toj,2023.2.3,59.897132662053274,2023-11-28 23h17.46.027381 +0530,
audio\set_4\pace_en-IN-Standard-A.wav,audio\set_2\wood_en-IN-Standard-A.wav,audio\set_5\sat_en-IN-Standard-A.wav,audio\set_6\plea_en-IN-Standard-A.wav,pace,wood,sat,plea,600,5,,,,,0,6,6,5,221.2226939999964,,,,,,,,,,,,,,,,,221.2070637999568,221.2226939999964,221.2226939999964,224.20625829999335,224.20627309998963,224.22210190002806,226.22225250001065,226.22225250001065,226.7215820000274,226.70563149999361,226.7056472999975,226.7215820000274,228.72209010005463,228.72209010005463,229.22115570004098,229.20533819997218,229.20535459998064,229.22115570004098,231.22177159995772,231.22177159995772,,231.72163180005737,231.72166240005754,231.75334579998162,0.6128884999779984,233.7536421000259,233.7375871000113,233.73761049995665,233.7536421000259,233.7536421000259,236.5541824999964,n,2.7846177000319585,None,236.5545001999708,236.5698132000398,238.06956079998054,238.05441390001215,224.22210190002806,224.22210190002806,,,,,,,,,,,,1,001,2023-11-28_23h17.24.636,pitch_toj,2023.2.3,59.897132662053274,2023-11-28 23h17.46.027381 +0530,
audio\set_4\race_en-IN-Standard-X.wav,audio\set_4\face_en-IN-Standard-X.wav,audio\set_4\lace_en-IN-Standard-X.wav,audio\set_4\pace_en-IN-Standard-X.wav,ace,face,lace,pace,500,3,,,,,0,7,7,19,238.06956079998054,,,,,,,,,,,,,,,,,238.05475779995322,238.06956079998054,238.06956079998054,241.0530610999558,241.05307619995438,241.06895510002505,243.06855740002356,243.06855740002356,243.56841920001898,243.5530441000592,243.55306669999845,243.56841920001898,245.5680388000328,245.5680388000328,246.06788610003423,246.05193720001262,246.05195350002032,246.06788610003423,248.06747819995508,248.06747819995508,248.58210220001638,248.5523620999884,248.55237920000218,248.58210220001638,0.5134943999582902,250.58370199997444,250.56765950005502,250.56768139998894,250.58370199997444,250.58370199997444,252.73457079997752,n,2.139618800021708,None,252.7348839000333,252.75000770005863,254.2494946999941,254.23376279999502,241.06895510002505,241.06895510002505,,,,,,,,,,,,1,001,2023-11-28_23h17.24.636,pitch_toj,2023.2.3,59.897132662053274,2023-11-28 23h17.46.027381 +0530,
audio\set_7\boat_en-IN-Standard-C.wav,audio\set_7\goat_en-IN-Standard-C.wav,audio\set_7\moat_en-IN-Standard-C.wav,audio\set_7\float_en-IN-Standard-C.wav,boat,goat,moat,float,0,0,,,,,0,8,8,8,254.2494946999941,,,,,,,,,,,,,,,,,254.2340472000651,254.2494946999941,254.2494946999941,257.23310169996694,257.233116599964,257.24919730005786,259.2487170000095,259.2487170000095,259.74868990003597,259.73274100001436,259.73275650001597,259.74868990003597,261.74889250006527,261.74889250006527,262.248092200025,262.2322301999666,262.23226159997284,262.248092200025,264.24856320000254,264.24856320000254,,264.74844100000337,264.7484698999906,264.77396649995353,0.03465960000175983,266.7806627000682,266.76470950001385,266.76473219995387,266.7806627000682,266.7806627000682,267.94816709996667,y,1.1661268000025302,None,267.948545500054,267.9637869000435,269.46331480005756,269.447692799964,257.24919730005786,257.24919730005786,,,,,,,,,,,,1,001,2023-11-28_23h17.24.636,pitch_toj,2023.2.3,59.897132662053274,2023-11-28 23h17.46.027381 +0530,
audio\set_11\call_en-IN-Standard-C.wav,audio\set_11\fall_en-IN-Standard-C.wav,audio\set_11\wall_en-IN-Standard-C.wav,audio\set_11\pall_en-IN-Standard-C.wav,call,fall,wall,pall,500,3,,,,,0,9,9,11,269.46331480005756,,,,,,,,,,,,,,,,,269.4480056000175,269.46331480005756,269.46331480005756,272.446868399973,272.4468897000188,272.4627713999944,274.4625742000062,274.4625742000062,274.9623562999768,274.94726060004905,274.9472842999967,274.9623562999768,276.96279320004396,276.96279320004396,277.4618710000068,277.4461158000631,277.4461328999605,277.4618710000068,279.46143979998305,279.46143979998305,279.98312890005764,279.9461919000605,279.9462084999541,279.98312890005764,0.5128706999821588,281.9945960000623,281.9783148999559,281.9783389000222,281.9945960000623,281.9945960000623,283.81179790000897,n,1.8032869999296963,None,283.8121055000229,283.82714429998305,285.3269872000674,285.31177519995254,272.4627713999944,272.4627713999944,,,,,,,,,,,,1,001,2023-11-28_23h17.24.636,pitch_toj,2023.2.3,59.897132662053274,2023-11-28 23h17.46.027381 +0530,
audio\set_1\right_en-IN-Standard-C.wav,audio\set_6\bee_en-IN-Standard-C.wav,audio\set_4\face_en-IN-Standard-C.wav,audio\set_9\box_en-IN-Standard-C.wav,right,bee,face,box,550,4,,,,,0,10,10,12,285.3269872000674,,,,,,,,,,,,,,,,,285.31208299996797,285.3269872000674,285.3269872000674,288.31045360001735,288.3104683000129,288.32634170004167,290.3266748000169,290.3266748000169,290.82589850004297,290.80986629996914,290.80988159996923,290.82589850004297,292.82608380005695,292.82608380005695,293.32549099996686,293.31026709999423,293.3102826999966,293.32549099996686,295.32586780004203,295.32586780004203,295.8487369000213,295.80911160004325,295.8091280000517,295.8487369000213,0.5629025000380352,297.85791210003663,297.84280470001977,297.84282829996664,297.85791210003663,297.85791210003663,300.7250279999571,n,2.854706799960695,None,300.72531380003784,300.7407445999561,302.24084820004646,302.22506800002884,288.32634170004167,288.32634170004167,,,,,,,,,,,,1,001,2023-11-28_23h17.24.636,pitch_toj,2023.2.3,59.897132662053274,2023-11-28 23h17.46.027381 +0530,
audio\set_6\bee_en-IN-Standard-X.wav,audio\set_6\dee_en-IN-Standard-X.wav,audio\set_6\tree_en-IN-Standard-X.wav,audio\set_6\plea_en-IN-Standard-X.wav,bee,dee,tree,plea,200,1,,,,,0,11,11,17,302.24084820004646,,,,,,,,,,,,,,,,,302.22564550000243,302.24084820004646,302.24084820004646,305.22432639996987,305.22434149996843,305.23980089998804,307.24000810005236,307.24000810005236,307.73943009995855,307.7241902999813,307.7242051999783,307.73943009995855,309.7387941000052,309.7387941000052,310.2388690999942,310.2237607999705,310.22379349998664,310.2388690999942,312.239065199974,312.239065199974,312.7384600000223,312.7232747999951,312.72329180000816,312.7384600000223,0.2129595000296831,314.73797739995643,314.722723999992,314.7227486000629,314.73797739995643,314.73797739995643,316.17219539999496,y,1.42074249999132,None,316.17248649999965,316.1876444000518,317.6874009000603,317.6723020999925,305.23980089998804,305.23980089998804,,,,,,,,,,,,1,001,2023-11-28_23h17.24.636,pitch_toj,2023.2.3,59.897132662053274,2023-11-28 23h17.46.027381 +0530,
audio\set_1\right_en-IN-Standard-X.wav,audio\set_5\sat_en-IN-Standard-X.wav,audio\set_10\fly_en-IN-Standard-X.wav,audio\set_11\wall_en-IN-Standard-X.wav,right,sat,fly,wall,600,5,,,,,0,12,12,21,317.6874009000603,,,,,,,,,,,,,,,,,317.672618499957,317.6874009000603,317.6874009000603,320.67099779995624,320.6710131999571,320.6868428000016,322.68643310002517,322.68643310002517,323.1863893000409,323.1709851999767,323.1710001999745,323.1863893000409,325.18676539999433,325.18676539999433,325.6862833000487,325.67088059999514,325.6709078999702,325.6862833000487,327.6853666000534,327.6853666000534,328.1910935000051,328.1694482000312,328.1694647000404,328.1910935000051,0.612777000060305,330.20152230001986,330.18563439999707,330.18565750005655,330.20152230001986,330.20152230001986,332.9354800999863,n,2.732756100012921,None,332.9357709999895,332.95121259998996,334.4508237000555,334.4347712000599,320.6868428000016,320.6868428000016,,,,,,,,,,,,1,001,2023-11-28_23h17.24.636,pitch_toj,2023.2.3,59.897132662053274,2023-11-28 23h17.46.027381 +0530,
audio\set_7\float_en-IN-Standard-A.wav,audio\set_6\tree_en-IN-Standard-A.wav,audio\set_6\dee_en-IN-Standard-A.wav,audio\set_8\vow_en-IN-Standard-A.wav,float,tree,dee,vow,1000,7,,,,,0,13,13,7,334.4508237000555,,,,,,,,,,,,,,,,,334.43511309998576,334.4508237000555,334.4508237000555,337.43456540000625,337.43458300002385,337.45035569998436,339.4497192000272,339.4497192000272,339.9496634999523,339.9344254999887,339.93444930005353,339.9496634999523,341.9501128999982,341.9501128999982,342.44940569996834,342.4346660999581,342.4346939000534,342.44940569996834,344.4489746000618,344.4489746000618,344.96647520002443,344.9327501000371,344.9327748999931,344.96647520002443,1.0126862999750301,346.9816773000639,346.96559659997,346.9656210000394,346.9816773000639,346.9816773000639,348.48257160000503,n,1.4934999000979587,None,348.4828564999625,348.49800949997734,349.99812070000917,349.98184190003667,337.45035569998436,337.45035569998436,,,,,,,,,,,,1,001,2023-11-28_23h17.24.636,pitch_toj,2023.2.3,59.897132662053274,2023-11-28 23h17.46.027381 +0530,
audio\set_5\vat_en-IN-Standard-A.wav,audio\set_8\grow_en-IN-Standard-A.wav,audio\set_1\light_en-IN-Standard-A.wav,audio\set_10\guy_en-IN-Standard-A.wav,vat,grow,light,guy,800,6,,,,,0,14,14,6,349.99812070000917,,,,,,,,,,,,,,,,,349.9821958000539,349.99812070000917,349.99812070000917,352.98128900001757,352.98130430001765,352.99701940000523,354.9969850999769,354.9969850999769,355.49666000006255,355.4807718000375,355.4807873000391,355.49666000006255,357.4962983999867,357.4962983999867,357.99627840006724,357.98020260001067,357.9802290999796,357.99627840006724,359.99666229996365,359.99666229996365,360.51322079997044,360.4798090000404,360.4798251000466,360.51322079997044,0.8136513000354171,362.529652700061,362.51280300004873,362.51282469998114,362.529652700061,362.529652700061,364.42937170004006,n,1.8865275999996811,None,364.4296632000478,364.4448963999748,365.9446669999743,365.9288190000225,352.99701940000523,352.99701940000523,,,,,,,,,,,,1,001,2023-11-28_23h17.24.636,pitch_toj,2023.2.3,59.897132662053274,2023-11-28 23h17.46.027381 +0530,
audio\set_4\lace_en-IN-Standard-C.wav,audio\set_4\face_en-IN-Standard-C.wav,audio\set_5\sat_en-IN-Standard-C.wav,audio\set_11\wall_en-IN-Standard-C.wav,lace,face,sat,wall,800,6,,,,,0,15,15,14,365.9446669999743,,,,,,,,,,,,,,,,,365.9291487999726,365.9446669999743,365.9446669999743,368.92830729996786,368.928329700022,368.94468570000026,370.94456460000947,370.94456460000947,371.443540200009,371.4285043999553,371.4285284000216,371.443540200009,373.4431128000142,373.4431128000142,373.94303560000844,373.9271199000068,373.92713660001755,373.94303560000844,375.94364179996774,375.94364179996774,376.451675600023,376.42688539996743,376.426902599982,376.451675600023,0.8127580999862403,378.4592197999591,378.4429894000059,378.4430117000593,378.4592197999591,378.4592197999591,379.85959580005147,n,1.3840428000548854,None,379.859883600031,379.87535230000503,381.375031100004,381.3591284999857,368.94468570000026,368.94468570000026,,,,,,,,,,,,1,001,2023-11-28_23h17.24.636,pitch_toj,2023.2.3,59.897132662053274,2023-11-28 23h17.46.027381 +0530,
audio\set_8\crow_en-IN-Standard-C.wav,audio\set_8\owl_en-IN-Standard-C.wav,audio\set_8\vow_en-IN-Standard-C.wav,audio\set_8\cow_en-IN-Standard-C.wav,crow,owl,vow,cow,400,2,,,,,0,16,16,10,381.375031100004,,,,,,,,,,,,,,,,,381.359406500007,381.375031100004,381.375031100004,384.3589809000259,384.3590094000101,384.37429980002344,386.374770800001,386.374770800001,386.87400559999514,386.85812450002413,386.858140300028,386.87400559999514,388.87356830004137,388.87356830004137,389.37358700006735,389.3575395999942,389.3575559000019,389.37358700006735,391.3737366000423,391.3737366000423,391.8880413000006,391.8577725000214,391.8577877000207,391.8880413000006,0.4131193000357598,393.88932089996524,393.8733217000263,393.87334449996706,393.88932089996524,393.88932089996524,397.439486999996,n,3.5418213000521064,None,397.4397749999771,397.45525580004323,398.954861599952,398.93908919999376,384.37429980002344,384.37429980002344,,,,,,,,,,,,1,001,2023-11-28_23h17.24.636,pitch_toj,2023.2.3,59.897132662053274,2023-11-28 23h17.46.027381 +0530,
audio\set_1\light_en-IN-Standard-C.wav,audio\set_0\wheat_en-IN-Standard-C.wav,audio\set_6\dee_en-IN-Standard-C.wav,audio\set_1\fight_en-IN-Standard-C.wav,light,wheat,dee,fight,600,5,,,,,0,17,17,13,398.954861599952,,,,,,,,,,,,,,,,,398.93944029998966,398.954861599952,398.954861599952,401.93832910002675,401.93834540003445,401.95442079997156,403.954668499995,403.954668499995,404.4538250999758,404.4379926000256,404.4380153999664,404.4538250999758,406.45428449998144,406.45428449998144,,406.9537286000559,406.95374180004,406.97003780002706,408.97044920001645,408.9532900999766,409.4528736000648,409.437314299983,409.43733710004017,409.4528736000648,0.6129269999219105,411.45256630005315,411.4376621999545,411.4377108999761,411.45256630005315,411.45256630005315,432.94940769998357,y,21.48096890002489,None,432.9497403999558,432.96498539997265,434.46476420003455,434.44991720002145,401.95442079997156,401.95442079997156,,,,,,,,,,,,1,001,2023-11-28_23h17.24.636,pitch_toj,2023.2.3,59.897132662053274,2023-11-28 23h17.46.027381 +0530,
audio\set_6\dee_en-IN-Standard-X.wav,audio\set_11\wall_en-IN-Standard-X.wav,audio\set_6\tree_en-IN-Standard-X.wav,audio\set_3\train_en-IN-Standard-X.wav,dee,wall,tree,train,800,6,,,,,0,18,18,22,434.46476420003455,,,,,,,,,,,,,,,,,434.45025430002715,434.46476420003455,434.46476420003455,437.448172000004,437.4481882000109,437.4642146000406,439.4637113000499,439.4637113000499,439.96365920000244,439.94771850004327,439.9477507000556,439.96365920000244,441.96334670006763,441.96334670006763,442.4633123000385,442.44785380002577,442.4478680000175,442.4633123000385,444.4635237000184,444.4635237000184,444.97914289997425,444.9475113999797,444.9475281999912,444.97914289997425,0.8128080000169575,446.97898670006543,446.96323330001906,446.9632559999591,446.97898670006543,446.97898670006543,448.1470302999951,n,1.1649458999745548,None,448.1473189999815,448.16213609999977,449.6616643000161,449.645736400038,437.4642146000406,437.4642146000406,,,,,,,,,,,,1,001,2023-11-28_23h17.24.636,pitch_toj,2023.2.3,59.897132662053274,2023-11-28 23h17.46.027381 +0530,
audio\set_11\bawl_en-IN-Standard-A.wav,audio\set_6\bee_en-IN-Standard-A.wav,audio\set_9\rocks_en-IN-Standard-A.wav,audio\set_5\sat_en-IN-Standard-A.wav,bawl,bee,rocks,sat,550,4,,,,,0,19,19,4,449.6616643000161,,,,,,,,,,,,,,,,,449.646013300051,449.6616643000161,449.6616643000161,452.64539269998204,452.6454085999867,452.66111580003053,454.66080289997626,454.66080289997626,455.16073470003903,455.14464469999075,455.14466019999236,455.16073470003903,457.16054009995423,457.16054009995423,457.6601974000223,457.6442335000029,457.6442487000022,457.6601974000223,459.6599249000428,459.6599249000428,460.1715939999558,460.14391230000183,460.143928400008,460.1715939999558,0.5631489999359474,462.1761117000133,462.1600041000638,462.16002599999774,462.1761117000133,462.1761117000133,463.7104500000132,n,1.5329659000271931,None,463.71082200005185,463.7255521999905,465.22562270006165,465.21100999997,452.66111580003053,452.66111580003053,,,,,,,,,,,,1,001,2023-11-28_23h17.24.636,pitch_toj,2023.2.3,59.897132662053274,2023-11-28 23h17.46.027381 +0530,
audio\set_11\crawl_en-IN-Standard-X.wav,audio\set_11\bawl_en-IN-Standard-X.wav,audio\set_1\light_en-IN-Standard-X.wav,audio\set_4\face_en-IN-Standard-X.wav,crawl,bawl,light,face,550,4,,,,,0,20,20,20,465.22562270006165,,,,,,,,,,,,,,,,,465.21130450000055,465.22562270006165,465.22562270006165,468.20896950003225,468.2089847000316,468.2247504000552,470.22435110004153,470.22435110004153,470.7242767000571,470.70899559999816,470.70901089999825,470.7242767000571,472.72388020006474,472.72388020006474,473.22382449998986,473.20800129999407,473.208017500001,473.22382449998986,475.2240876000142,475.2240876000142,475.7378523000516,475.70726990001276,475.7073237999575,475.7378523000516,0.5625687000574544,477.7396188999992,477.7244542000117,477.7244769000681,477.7396188999992,477.7396188999992,478.9407749000238,n,1.1996477999491617,None,478.94110629998613,478.95618540002033,480.45576749998145,480.44003659999,468.2247504000552,468.2247504000552,,,,,,,,,,,,1,001,2023-11-28_23h17.24.636,pitch_toj,2023.2.3,59.897132662053274,2023-11-28 23h17.46.027381 +0530,
audio\set_9\box_en-IN-Standard-X.wav,audio\set_11\bawl_en-IN-Standard-X.wav,audio\set_0\sleet_en-IN-Standard-X.wav,audio\set_5\rat_en-IN-Standard-X.wav,box,bawl,sleet,rat,1000,7,,,,,0,21,21,23,480.45576749998145,,,,,,,,,,,,,,,,,480.44038619997445,480.45576749998145,480.45576749998145,483.4394128000131,483.43942790001165,483.4553818999557,485.45530150004197,485.45530150004197,485.95472170005087,485.9387442000443,485.93876040005125,485.95472170005087,487.9542774000438,487.9542774000438,488.4542895000195,488.43911979999393,488.439135099994,488.4542895000195,490.4547870999668,490.4547870999668,,490.9546310000587,490.9546450000489,490.979936299962,1.012405699933879,492.9866794999689,492.9705845999997,492.9706071000546,492.9866794999689,492.9866794999689,494.08770320005715,n,1.0930558999534696,None,494.0880108999554,494.1031271000393,495.6029268000275,495.58674459997565,483.4553818999557,483.4553818999557,,,,,,,,,,,,1,001,2023-11-28_23h17.24.636,pitch_toj,2023.2.3,59.897132662053274,2023-11-28 23h17.46.027381 +0530,
audio\set_9\box_en-IN-Standard-A.wav,audio\set_9\fox_en-IN-Standard-A.wav,audio\set_9\ox_en-IN-Standard-A.wav,audio\set_9\rocks_en-IN-Standard-A.wav,box,fox,ox,rocks,200,1,,,,,0,22,22,1,495.6029268000275,,,,,,,,,,,,,,,,,495.58711740002036,495.6029268000275,495.6029268000275,498.5864196000621,498.5864343000576,498.60221230005845,500.6017495000269,500.6017495000269,501.10174630000256,501.0866317000473,501.0866469000466,501.10174630000256,503.1014109000098,503.1014109000098,503.60158739995677,503.5861635999754,503.5861795999808,503.60158739995677,505.60181330004707,505.60181330004707,506.1066503999755,506.08571440004744,506.08573070005514,506.1066503999755,0.21268400002736598,508.11701709998306,508.10176960006356,508.10179109999444,508.11701709998306,508.11701709998306,508.5680116000585,y,0.4372523999772966,None,508.56841459998395,508.5836812000489,510.0830629999982,510.0678970000008,498.60221230005845,498.60221230005845,,,,,,,,,,,,1,001,2023-11-28_23h17.24.636,pitch_toj,2023.2.3,59.897132662053274,2023-11-28 23h17.46.027381 +0530,
audio\set_3\train_en-IN-Standard-A.wav,audio\set_3\train_en-IN-Standard-A.wav,audio\set_3\lane_en-IN-Standard-A.wav,audio\set_3\main_en-IN-Standard-A.wav,rain,train,lane,main,400,2,,,,,0,23,23,2,510.0830629999982,,,,,,,,,,,,,,,,,510.06820560002234,510.0830629999982,510.0830629999982,513.0668592000147,513.066874000011,513.0829174000537,515.0831520999782,515.0831520999782,515.5822522999952,515.56688389997,515.5669003999792,515.5822522999952,517.5819920999929,517.5819920999929,518.0819700000575,518.0658190000104,518.0658353000181,518.0819700000575,520.0820416000206,520.0820416000206,520.5963035000023,520.5661767000565,520.5661929000635,520.5963035000023,0.4129275999730453,522.5977270000149,522.581507200026,522.581530299969,522.5977270000149,522.5977270000149,523.7652594000101,n,1.1661899000173435,None,523.7655404000543,523.7807658000384,525.280358399963,525.2647456000559,513.0829174000537,513.0829174000537,,,,,,,,,,,,1,001,2023-11-28_23h17.24.636,pitch_toj,2023.2.3,59.897132662053274,2023-11-28 23h17.46.027381 +0530,
,,,,,,,,,,,,,,,,,,,,,,,,,,,,,,,,,,,,,,,,,,,,,,,,,,,,,,,,,,,,,,,,,,,,,,,,,,,,,,,,,,525.264810899971,525.280358399963,529.2797021999722,529.2636160999537,,,,,,,,
