path1,path2,path3,path4,word1,word2,word3,word4,delay,index,practiceTrial.thisRepN,practiceTrial.thisTrialN,practiceTrial.thisN,practiceTrial.thisIndex,trials.thisRepN,trials.thisTrialN,trials.thisN,trials.thisIndex,thisRow.t,notes,welcomeScreen.started,text.started,textbox.started,text.stopped,welcomeScreen.stopped,start_resp.keys,start_resp.rt,start_resp.duration,practiceSesh.started,practiceText.started,key_resp.started,practiceSesh.stopped,key_resp.keys,key_resp.rt,key_resp.duration,trialStart.started,text_3.started,text_4.started,trialStart.stopped,firstWord.started,firstW.started,polygon.started,firstW.stopped,polygon.stopped,firstWord.stopped,secondWord.started,secondW.started,secondW.stopped,polygon_2.started,polygon_2.stopped,secondWord.stopped,thirdWord.started,thirdW.started,thirdW.stopped,polygon_3.started,polygon_3.stopped,thirdWord.stopped,fourthWord.started,fourthW.started,sound_1.started,fourthW.stopped,fourthWord.stopped,response.started,text_6.started,key_resp_2.started,response.stopped,key_resp_2.keys,key_resp_2.rt,key_resp_2.duration,trialEnd.started,text_8.started,text_8.stopped,trialEnd.stopped,text_3.stopped,text_4.stopped,experimentStart.started,text_7.started,key_resp_3.started,experimentStart.stopped,key_resp_3.keys,key_resp_3.rt,key_resp_3.duration,EndScreen.started,text_5.started,text_5.stopped,EndScreen.stopped,participant,session,date,expName,psychopyVersion,frameRate,expStart,
,,,,,,,,,,,,,,,,,,,,0.0033502000151202083,0.02311920002102852,4.007075299974531,4.023740699980408,11.540712199988775,space,7.530727299978025,None,,,,,,,,,,,,,,,,,,,,,,,,,,,,,,,,,,,,,,,,,,,,,,,,,,,,,,,,,,,2,001,2023-11-28_23h28.43.911,pitch_toj,2023.2.3,60.06493020847734,2023-11-28 23h28.57.122359 +0530,
,,,,,,,,,,,,,,,,,,,,,,,,,,,,11.540746700018644,11.55574229999911,11.55574229999911,13.790068199974485,space,2.231554500060156,None,,,,,,,,,,,,,,,,,,,,,,,,,,,,,,,,,,,,,,,,,,,,,,,,,,,,2,001,2023-11-28_23h28.43.911,pitch_toj,2023.2.3,60.06493020847734,2023-11-28 23h28.57.122359 +0530,
audio\set_12\card_en-IN-Standard-A.wav,audio\set_12\yard_en-IN-Standard-A.wav,audio\set_12\yards_en-IN-Standard-A.wav,audio\set_12\bard_en-IN-Standard-A.wav,card,yard,yards,bard,200,,0,0,0,0,,,,,13.80942619999405,,,,,,,,,,,,,,,,,13.797775099985301,13.80942619999405,13.80942619999405,16.804926899960265,16.804949900018983,16.821243899990804,18.804134199977852,18.82218090002425,19.30405899998732,19.288793899933808,19.28880959993694,19.30405899998732,21.304317399975844,21.304317399975844,21.803631899994798,21.787722300039604,21.787747800000943,21.803631899994798,23.804084999952465,23.804084999952465,24.303072400041856,24.287292300025,24.28731149993837,24.303072400041856,0.21348580007907003,26.30275959998835,26.286695200018585,26.28671769995708,26.30275959998835,26.30275959998835,34.61999100004323,n,8.313852999941446,None,34.6206414999906,34.63446660002228,36.13417949993163,36.11820819997229,,,,,,,,,,,,,,2,001,2023-11-28_23h28.43.911,pitch_toj,2023.2.3,60.06493020847734,2023-11-28 23h28.57.122359 +0530,
audio\set_12\card_en-IN-Standard-X.wav,audio\set_12\yard_en-IN-Standard-X.wav,audio\set_12\yards_en-IN-Standard-X.wav,audio\set_12\bard_en-IN-Standard-X.wav,card,yard,yards,bard,900,,0,1,1,2,,,,,36.13417949993163,,,,,,,,,,,,,,,,,36.118492100038566,36.13417949993163,36.13417949993163,39.117866099928506,39.117881200043485,39.13353370002005,41.13371850003023,41.13371850003023,41.63302039995324,41.61795849993359,41.61797369993292,41.63302039995324,43.63274809997529,43.63274809997529,44.13297439995222,44.11792200000491,44.117940600030124,44.13297439995222,46.133126899949275,46.133126899949275,,46.63242959999479,46.63244269997813,46.64887329994235,0.9114891000790522,48.648272300022654,48.63246829994023,48.63250009994954,48.648272300022654,48.648272300022654,48.71635260002222,n,0.05763409996870905,None,48.71664749993943,48.73165830003563,50.231467799982056,50.215565599966794,39.13353370002005,39.13353370002005,,,,,,,,,,,,2,001,2023-11-28_23h28.43.911,pitch_toj,2023.2.3,60.06493020847734,2023-11-28 23h28.57.122359 +0530,
audio\set_12\card_en-IN-Standard-C.wav,audio\set_12\yard_en-IN-Standard-C.wav,audio\set_12\yards_en-IN-Standard-C.wav,audio\set_12\bard_en-IN-Standard-C.wav,card,yard,yards,bard,600,,0,2,2,1,,,,,50.231467799982056,,,,,,,,,,,,,,,,,50.215855499962345,50.231467799982056,50.231467799982056,53.21532750001643,53.2153431000188,53.23098089999985,55.23033059993759,55.23033059993759,55.73039449995849,55.71519060002174,55.715207700035535,55.73039449995849,57.72989499999676,57.72989499999676,58.2299543999834,58.213899399968795,58.21395929995924,58.2299543999834,60.22963820002042,60.22963820002042,60.72936470003333,60.713414300000295,60.713430600007996,60.72936470003333,0.6134735000086948,62.728990499977954,62.7130187000148,62.713040399947204,62.728990499977954,62.728990499977954,63.41416289994959,n,0.674495599931106,None,63.41451989999041,63.42909170000348,64.97826380003244,64.91262369998731,53.23098089999985,53.23098089999985,,,,,,,,,,,,2,001,2023-11-28_23h28.43.911,pitch_toj,2023.2.3,60.06493020847734,2023-11-28 23h28.57.122359 +0530,
,,,,,,,,,,,,,,,,,,,,,,,,,,,,,,,,,,,,,,,,,,,,,,,,,,,,,,,,,,,,,,,,,,,,,,,,,,,64.91269399994053,64.97826380003244,66.92908719996922,68.7956617999589,space,1.8526300000958145,None,,,,,2,001,2023-11-28_23h28.43.911,pitch_toj,2023.2.3,60.06493020847734,2023-11-28 23h28.57.122359 +0530,
audio\set_9\box_en-IN-Standard-A.wav,audio\set_9\fox_en-IN-Standard-A.wav,audio\set_9\ox_en-IN-Standard-A.wav,audio\set_9\rocks_en-IN-Standard-A.wav,box,fox,ox,rocks,0,0,,,,,0,0,0,0,68.82827109994832,,,,,,,,,,,,,,,,,68.82060700003058,68.82827109994832,68.82827109994832,71.81063930003438,71.8106853000354,71.82720519998111,73.81029359996319,73.82758010004181,74.31018609995954,74.29463200003374,74.29464770003688,74.31018609995954,76.3098697999958,76.3098697999958,76.809761099983,76.79380799992941,76.79382529994473,76.809761099983,78.80926609993912,78.80926609993912,79.30927410000004,79.2940655000275,79.29408369993325,79.30927410000004,0.002303000073879957,81.30879099993035,81.29274479998276,81.29276810004376,81.30879099993035,81.30879099993035,81.44334580004215,y,0.12661859998479486,None,81.4439242000226,81.45872669992968,82.95835790003184,82.94247380003799,,,,,,,,,,,,,,2,001,2023-11-28_23h28.43.911,pitch_toj,2023.2.3,60.06493020847734,2023-11-28 23h28.57.122359 +0530,
audio\set_3\train_en-IN-Standard-A.wav,audio\set_2\mood_en-IN-Standard-A.wav,audio\set_10\guy_en-IN-Standard-A.wav,audio\set_4\lace_en-IN-Standard-A.wav,rain,mood,guy,lace,550,4,,,,,0,1,1,4,82.95835790003184,,,,,,,,,,,,,,,,,82.94277710001916,82.95835790003184,82.95835790003184,85.942033899948,85.94204949995037,85.95788450003602,87.95824149996042,87.95824149996042,88.45740439998917,88.44138730003033,88.4414029000327,88.45740439998917,90.4570103000151,90.4570103000151,90.95693879993632,90.9410205000313,90.94103690003976,90.95693879993632,92.95647620002273,92.95647620002273,93.46852500003297,93.44049259996973,93.44051680003759,93.46852500003297,0.5626060999929905,95.47268949996214,95.45659509999678,95.45661729993299,95.47268949996214,95.47268949996214,96.05713430000469,n,0.5678879000479355,None,96.0574172999477,96.07253510004375,97.57225490000565,97.55629989993758,85.95788450003602,85.95788450003602,,,,,,,,,,,,2,001,2023-11-28_23h28.43.911,pitch_toj,2023.2.3,60.06493020847734,2023-11-28 23h28.57.122359 +0530,
audio\set_0\beat_en-IN-Standard-C.wav,audio\set_0\wheat_en-IN-Standard-C.wav,"audio\set_0
eed_en-IN-Standard-C.wav",audio\set_0\heat_en-IN-Standard-C.wav,beat,wheat,need,heat,500,3,,,,,0,2,2,11,97.57225490000565,,,,,,,,,,,,,,,,,97.55660050001461,97.57225490000565,97.57225490000565,100.55572349997237,100.55573799996637,100.571643400006,102.57131539995316,102.57131539995316,103.1406118000159,103.05605190002825,103.05606710002758,103.1406118000159,105.15412279998418,105.07088489993475,105.57088869996369,105.55565240001306,105.55566870002076,105.57088869996369,107.57120899995789,107.57120899995789,,108.07088489993475,108.07091420004144,108.08937970001716,0.5129176999907941,110.10336509998888,110.08807389996946,110.08809680002742,110.10336509998888,110.10336509998888,110.57151000003796,n,0.46514089999254793,None,110.57183269993402,110.58648409997113,112.0861154999584,112.07027529994957,100.571643400006,100.571643400006,,,,,,,,,,,,2,001,2023-11-28_23h28.43.911,pitch_toj,2023.2.3,60.06493020847734,2023-11-28 23h28.57.122359 +0530,
audio\set_1\light_en-IN-Standard-X.wav,audio\set_1\might_en-IN-Standard-X.wav,audio\set_1\bite_en-IN-Standard-X.wav,audio\set_1\right_en-IN-Standard-X.wav,light,might,bite,right,500,3,,,,,0,3,3,19,112.0861154999584,,,,,,,,,,,,,,,,,112.07056689995807,112.0861154999584,112.0861154999584,115.0696948999539,115.06970979995094,115.08551390003413,117.08520770003088,117.08520770003088,117.58535439998377,117.56974109995645,117.56976540002506,117.58535439998377,119.58481939998455,119.58481939998455,120.08475999999791,120.06876569997985,120.06878139998298,120.08475999999791,122.08407959993929,122.08407959993929,122.60069949994795,122.56815459998325,122.56817069998942,122.60069949994795,0.512204600032419,124.60070589999668,124.58462869992945,124.58465159998741,124.60070589999668,124.60070589999668,125.11905540002044,n,0.5020342000061646,None,125.1193369999528,125.13377149996813,126.63328529999126,126.61737580003683,115.08551390003413,115.08551390003413,,,,,,,,,,,,2,001,2023-11-28_23h28.43.911,pitch_toj,2023.2.3,60.06493020847734,2023-11-28 23h28.57.122359 +0530,
audio\set_11\fall_en-IN-Standard-A.wav,audio\set_11\wall_en-IN-Standard-A.wav,audio\set_11\bawl_en-IN-Standard-A.wav,audio\set_11\crawl_en-IN-Standard-A.wav,fall,wall,bawl,crawl,200,1,,,,,0,4,4,1,126.63328529999126,,,,,,,,,,,,,,,,,126.61765959998593,126.63328529999126,126.63328529999126,129.61684989999048,129.61686529999133,129.63276379997842,131.63323149993084,131.63323149993084,132.13223650003783,132.11709820001852,132.11711450002622,132.13223650003783,134.13178129994776,134.13178129994776,134.6316997000249,134.61679609993007,134.61681199993473,134.6316997000249,136.63145300000906,136.63145300000906,137.15327280003112,137.11533179995604,137.11534799996298,137.15327280003112,0.21203529997728765,139.1641985999886,139.14912810001988,139.14915069995914,139.1641985999886,139.1641985999886,140.49843739997596,y,1.317847300088033,None,140.49872279993724,140.51399030000903,142.01366990001407,141.99775300000329,129.63276379997842,129.63276379997842,,,,,,,,,,,,2,001,2023-11-28_23h28.43.911,pitch_toj,2023.2.3,60.06493020847734,2023-11-28 23h28.57.122359 +0530,
audio\set_9\box_en-IN-Standard-C.wav,audio\set_0\beat_en-IN-Standard-C.wav,audio\set_9\rocks_en-IN-Standard-C.wav,audio\set_2\brood_en-IN-Standard-C.wav,box,beat,rocks,brood,600,5,,,,,0,5,5,13,142.01366990001407,,,,,,,,,,,,,,,,,141.99808089993894,142.01366990001407,142.01366990001407,144.99731629993767,144.9973327999469,145.01332909998018,147.01328590000048,147.01328590000048,147.51292240002658,147.49671919993125,147.4967345999321,147.51292240002658,149.51316029997543,149.51316029997543,150.01209450000897,149.9967826999491,149.99679959996138,150.01209450000897,152.01176030002534,152.01176030002534,152.5321127999341,152.4958723000018,152.49588930001482,152.5321127999341,0.612828699988313,154.54460529994685,154.52859280002303,154.52861549996305,154.54460529994685,154.54460529994685,154.99569360003807,n,0.44855420000385493,None,154.9959922999842,155.01109539996833,156.5108564000111,156.49501349998172,145.01332909998018,145.01332909998018,,,,,,,,,,,,2,001,2023-11-28_23h28.43.911,pitch_toj,2023.2.3,60.06493020847734,2023-11-28 23h28.57.122359 +0530,
audio\set_5\vat_en-IN-Standard-X.wav,audio\set_11\fall_en-IN-Standard-X.wav,audio\set_11\wall_en-IN-Standard-X.wav,audio\set_7\float_en-IN-Standard-X.wav,vat,fall,wall,float,550,4,,,,,0,6,6,20,156.5108564000111,,,,,,,,,,,,,,,,,156.49537509994116,156.5108564000111,156.5108564000111,159.49456639995333,159.4945824999595,159.5103092000354,161.50998179998714,161.50998179998714,162.00984099996276,161.99476199992932,161.9947872000048,162.00984099996276,164.0103509000037,164.0103509000037,164.50928420003038,164.49355869996361,164.4935968000209,164.50928420003038,166.50957370002288,166.50957370002288,167.01844060001895,166.99364969995804,166.99366629996803,167.01844060001895,0.5627823000540957,169.0249579999363,169.00929620000534,169.00931919994764,169.0249579999363,169.0249579999363,170.57588679995388,n,1.5414236000506207,None,170.5761803999776,170.5914700999856,172.09110830002464,172.07590429997072,159.5103092000354,159.5103092000354,,,,,,,,,,,,2,001,2023-11-28_23h28.43.911,pitch_toj,2023.2.3,60.06493020847734,2023-11-28 23h28.57.122359 +0530,
audio\set_1\right_en-IN-Standard-X.wav,audio\set_9\rocks_en-IN-Standard-X.wav,audio\set_8\grow_en-IN-Standard-X.wav,audio\set_0\wheat_en-IN-Standard-X.wav,right,rocks,grow,wheat,1000,7,,,,,0,7,7,23,172.09110830002464,,,,,,,,,,,,,,,,,172.07621029997244,172.09110830002464,172.09110830002464,175.07464929996058,175.07466379995458,175.09050910000224,177.0901981999632,177.0901981999632,177.5901162000373,177.57413890003227,177.57415400003083,177.5901162000373,179.5897352999309,179.5897352999309,180.08967679995112,180.07454069994856,180.0745581999654,180.08967679995112,182.08924929995555,182.08924929995555,182.6029292999301,182.57335860002786,182.57337500003632,182.6029292999301,1.0126921000191942,184.60527609998826,184.5895099999616,184.5895320000127,184.60527609998826,184.60527609998826,185.6396296999883,n,1.0266496000112966,None,185.6399747999385,185.65511619998142,187.1550886000041,187.13902559992857,175.09050910000224,175.09050910000224,,,,,,,,,,,,2,001,2023-11-28_23h28.43.911,pitch_toj,2023.2.3,60.06493020847734,2023-11-28 23h28.57.122359 +0530,
audio\set_4\race_en-IN-Standard-X.wav,audio\set_4\face_en-IN-Standard-X.wav,audio\set_4\lace_en-IN-Standard-X.wav,audio\set_4\pace_en-IN-Standard-X.wav,ace,face,lace,pace,200,1,,,,,0,8,8,17,187.1550886000041,,,,,,,,,,,,,,,,,187.1393725000089,187.1550886000041,187.1550886000041,190.1388398000272,190.13885710004251,190.15439239994157,192.15394739992917,192.15394739992917,192.6538719999371,192.637888199999,192.63790650002193,192.6538719999371,194.65346810000483,194.65346810000483,195.15344220004044,195.13756699999794,195.13758280000184,195.15344220004044,197.1536361000035,197.1536361000035,197.65282399998978,197.63811679999344,197.6381388999289,197.65282399998978,0.2130415999563411,199.65242699999362,199.63637790002394,199.63640209997538,199.65242699999362,199.65242699999362,200.32012910000049,y,0.65830840007402,None,200.3204093000386,200.3356203000294,201.8354234000435,201.8194416000042,190.15439239994157,190.15439239994157,,,,,,,,,,,,2,001,2023-11-28_23h28.43.911,pitch_toj,2023.2.3,60.06493020847734,2023-11-28 23h28.57.122359 +0530,
audio\set_8\vow_en-IN-Standard-A.wav,audio\set_7\throne_en-IN-Standard-A.wav,audio\set_0\deed_en-IN-Standard-A.wav,audio\set_1\light_en-IN-Standard-A.wav,vow,throne,deed,light,1000,7,,,,,0,9,9,7,201.8354234000435,,,,,,,,,,,,,,,,,201.8197930000024,201.8354234000435,201.8354234000435,204.81882889999542,204.81884409999475,204.83484190003946,206.8344171999488,206.8344171999488,207.33432469994295,207.3181902000215,207.31821739999577,207.33432469994295,209.33395500003826,209.33395500003826,209.83368589996826,209.8187947999686,209.81882619997486,209.83368589996826,211.83419229998253,211.83419229998253,212.35540829994716,212.3180278999498,212.31804359995294,212.35540829994716,1.0129446999635547,214.36729500000365,214.35015389998443,214.35017709992826,214.36729500000365,214.36729500000365,215.1010590000078,n,0.7309220000170171,None,215.10145710001234,215.11606609995943,216.6158900000155,216.60093700001016,204.83484190003946,204.83484190003946,,,,,,,,,,,,2,001,2023-11-28_23h28.43.911,pitch_toj,2023.2.3,60.06493020847734,2023-11-28 23h28.57.122359 +0530,
audio\set_8\bow_en-IN-Standard-X.wav,audio\set_8\grow_en-IN-Standard-X.wav,audio\set_8\vow_en-IN-Standard-X.wav,audio\set_8\cow_en-IN-Standard-X.wav,bow,grow,vow,cow,400,2,,,,,0,10,10,18,216.6158900000155,,,,,,,,,,,,,,,,,216.6012303000316,216.6158900000155,216.6158900000155,219.59941050002817,219.5994249000214,219.6156163000269,221.61535149998963,221.61535149998963,222.1149570000125,222.09973090002313,222.09974850004073,222.1149570000125,224.1145807999419,224.1145807999419,224.6142120999284,224.59854969999287,224.59856529999524,224.6142120999284,226.6146035999991,226.6146035999991,227.1169151000213,227.09851809998509,227.0985343999928,227.1169151000213,0.41239549999590963,229.13008799997624,229.114267500001,229.11429759999737,229.13008799997624,229.13008799997624,229.264369099983,y,0.12671760004013777,None,229.26464940002188,229.27999109996017,230.7799522000132,230.76391790003981,219.6156163000269,219.6156163000269,,,,,,,,,,,,2,001,2023-11-28_23h28.43.911,pitch_toj,2023.2.3,60.06493020847734,2023-11-28 23h28.57.122359 +0530,
audio\set_9\fox_en-IN-Standard-C.wav,audio\set_6\bee_en-IN-Standard-C.wav,audio\set_0\beat_en-IN-Standard-C.wav,audio\set_3\lane_en-IN-Standard-C.wav,fox,bee,beat,lane,1000,7,,,,,0,11,11,15,230.7799522000132,,,,,,,,,,,,,,,,,230.76428520004265,230.7799522000132,230.7799522000132,233.76339330000337,233.7634085000027,233.7792308999924,235.77875970001332,235.77875970001332,236.27862180001102,236.26318969996646,236.26320519996807,236.27862180001102,238.2790634999983,238.2790634999983,238.7782079000026,238.76292889995966,238.7629445999628,238.7782079000026,240.77789040002972,240.77789040002972,241.29522009997163,241.26165090000723,241.26166840002406,241.29522009997163,1.0136923000682145,243.31049429997802,243.2946898000082,243.29471249994822,243.31049429997802,243.31049429997802,243.86179480003193,n,0.5452600000426173,None,243.8620791999856,243.87775999994483,245.37700570002198,245.36096830002498,233.7792308999924,233.7792308999924,,,,,,,,,,,,2,001,2023-11-28_23h28.43.911,pitch_toj,2023.2.3,60.06493020847734,2023-11-28 23h28.57.122359 +0530,
audio\set_10\guy_en-IN-Standard-A.wav,audio\set_10\fly_en-IN-Standard-A.wav,"audio\set_10
igh_en-IN-Standard-A.wav",audio\set_10\guy_en-IN-Standard-A.wav,guy,fly,nigh,guy,400,2,,,,,0,12,12,2,245.37700570002198,,,,,,,,,,,,,,,,,245.36127520003356,245.37700570002198,245.37700570002198,248.36029800004326,248.36031310004182,248.37637790001463,250.376868500025,250.376868500025,250.87584470002912,250.8605337999761,250.86054899997544,250.87584470002912,252.8763114999747,252.8763114999747,253.3757348000072,253.3596336999908,253.35965729993768,253.3757348000072,255.37558360002004,255.37558360002004,255.87491619994398,255.85893949994352,255.85897309996653,255.87491619994398,0.41290029999800026,257.8745984999696,257.85884599993005,257.8588689999888,257.8745984999696,257.8745984999696,261.10913809994236,n,3.2289381999289617,None,261.1094215000048,261.1236680999864,262.62348660000134,262.6078312000027,248.37637790001463,248.37637790001463,,,,,,,,,,,,2,001,2023-11-28_23h28.43.911,pitch_toj,2023.2.3,60.06493020847734,2023-11-28 23h28.57.122359 +0530,
audio\set_4\face_en-IN-Standard-C.wav,audio\set_5\cat_en-IN-Standard-C.wav,audio\set_4\lace_en-IN-Standard-C.wav,audio\set_5\sat_en-IN-Standard-C.wav,face,cat,lace,sat,800,6,,,,,0,13,13,14,262.62348660000134,,,,,,,,,,,,,,,,,262.6081935999682,262.62348660000134,262.62348660000134,265.6070074000163,265.6070232000202,265.6230695999693,267.6226431999821,267.6226431999821,268.12252460001037,268.10649549996015,268.1065113999648,268.12252460001037,270.12317919998895,270.12317919998895,,270.6230525999563,270.6230819999473,270.63868860004004,272.6391064999625,272.6215494000353,273.1330489999382,273.10698989999946,273.10700600000564,273.1330489999382,0.8122653000755236,275.13779359997716,275.1219506999478,275.1219750000164,275.13779359997716,275.13779359997716,287.1531827999279,n,11.998591599985957,None,287.1535850999644,287.16885419993196,288.66852279996965,288.65259039995726,265.6230695999693,265.6230695999693,,,,,,,,,,,,2,001,2023-11-28_23h28.43.911,pitch_toj,2023.2.3,60.06493020847734,2023-11-28 23h28.57.122359 +0530,
audio\set_7\boat_en-IN-Standard-C.wav,audio\set_7\goat_en-IN-Standard-C.wav,audio\set_7\moat_en-IN-Standard-C.wav,audio\set_7\float_en-IN-Standard-C.wav,boat,goat,moat,float,400,2,,,,,0,14,14,10,288.66852279996965,,,,,,,,,,,,,,,,,288.65288429998327,288.66852279996965,288.66852279996965,291.6520165000111,291.6520315000089,291.6679598999908,293.6675870999461,293.6675870999461,294.1672947999323,294.1514696000377,294.1514948999975,294.1672947999323,296.1679718999658,296.1679718999658,296.66699789999984,296.6511577999918,296.65117420000024,296.66699789999984,298.6664765999885,298.6664765999885,299.1663429000182,299.1510372000048,299.15107150003314,299.1663429000182,0.413016099948436,301.1660934999818,301.1502562999958,301.150280599948,301.1660934999818,301.1660934999818,301.96703449997585,y,0.7916349000297487,None,301.96731989993714,301.9826702999417,303.48235209996346,303.4663284999551,291.6679598999908,291.6679598999908,,,,,,,,,,,,2,001,2023-11-28_23h28.43.911,pitch_toj,2023.2.3,60.06493020847734,2023-11-28 23h28.57.122359 +0530,
audio\set_5\sat_en-IN-Standard-A.wav,audio\set_0\wheat_en-IN-Standard-A.wav,audio\set_4\race_en-IN-Standard-A.wav,audio\set_9\box_en-IN-Standard-A.wav,sat,heat,ace,box,800,6,,,,,0,15,15,6,303.48235209996346,,,,,,,,,,,,,,,,,303.46661949995905,303.48235209996346,303.48235209996346,306.46593179996125,306.4659468999598,306.481723099947,308.4819887999911,308.4819887999911,308.98120779998135,308.9653937999392,308.96540869993623,308.98120779998135,310.98182099999394,310.98182099999394,311.4807587999385,311.46569869993255,311.4657143999357,311.4807587999385,313.48039539996535,313.48039539996535,313.99834759999067,313.9642633999465,313.9642802999588,313.99834759999067,0.8128622999647632,315.9967102999799,315.9815102999564,315.9815500000259,315.9967102999799,315.9967102999799,323.0796529999934,n,7.067330899997614,None,323.0799983999459,323.0951944999397,324.59494260000065,324.57889360003173,306.481723099947,306.481723099947,,,,,,,,,,,,2,001,2023-11-28_23h28.43.911,pitch_toj,2023.2.3,60.06493020847734,2023-11-28 23h28.57.122359 +0530,
audio\set_7\moat_en-IN-Standard-C.wav,audio\set_10\fly_en-IN-Standard-C.wav,audio\set_8\vow_en-IN-Standard-C.wav,audio\set_2\wood_en-IN-Standard-C.wav,moat,fly,vow,wood,550,4,,,,,0,16,16,12,324.59494260000065,,,,,,,,,,,,,,,,,324.57918100000825,324.59494260000065,324.59494260000065,327.57834300003015,327.5783573000226,327.5944406000199,329.593935300014,329.593935300014,330.0937207000097,330.0785358999856,330.0785555000184,330.0937207000097,332.09339199995156,332.09339199995156,332.5933735000435,332.5773070999421,332.5773229999468,332.5933735000435,334.59385049995035,334.59385049995035,335.11636059999,335.0773007000098,335.0773252999643,335.11636059999,0.5628914999542758,337.1278738999972,337.11063250002917,337.11067319998983,337.1278738999972,337.1278738999972,340.7427289999323,n,3.6046014999737963,None,340.74302749999333,340.758528699982,342.2580259999959,342.2428776000161,327.5944406000199,327.5944406000199,,,,,,,,,,,,2,001,2023-11-28_23h28.43.911,pitch_toj,2023.2.3,60.06493020847734,2023-11-28 23h28.57.122359 +0530,
audio\set_11\fall_en-IN-Standard-A.wav,audio\set_9\fox_en-IN-Standard-A.wav,audio\set_6\dee_en-IN-Standard-A.wav,audio\set_7\throne_en-IN-Standard-A.wav,fall,fox,dee,throne,600,5,,,,,0,17,17,5,342.2580259999959,,,,,,,,,,,,,,,,,342.2431670000078,342.2580259999959,342.2580259999959,345.24174420000054,345.24175939999986,345.25751589995343,347.2580235999776,347.2580235999776,347.75702949997503,347.7418506999966,347.7418820000021,347.75702949997503,349.7568311999785,349.7568311999785,350.25716139993165,350.24069599993527,350.2407118999399,350.25716139993165,352.273469000007,352.2561702999519,352.77042169997003,352.74013960000593,352.7401560000144,352.77042169997003,0.614022699999623,354.7722079999512,354.75655549997464,354.75657880003564,354.7722079999512,354.7722079999512,355.58988530002534,y,0.8052687000017613,None,355.59017790004145,355.6055999000091,357.10530739999376,357.08932899998035,345.25751589995343,345.25751589995343,,,,,,,,,,,,2,001,2023-11-28_23h28.43.911,pitch_toj,2023.2.3,60.06493020847734,2023-11-28 23h28.57.122359 +0530,
audio\set_5\bat_en-IN-Standard-X.wav,audio\set_5\rat_en-IN-Standard-X.wav,audio\set_5\sat_en-IN-Standard-X.wav,audio\set_5\vat_en-IN-Standard-X.wav,bat,rat,sat,vat,0,0,,,,,0,18,18,16,357.10530739999376,,,,,,,,,,,,,,,,,357.08970669994596,357.10530739999376,357.10530739999376,360.08885449997615,360.08886929997243,360.10473799996544,362.1051634999458,362.1051634999458,,362.604842599947,362.6048555999296,362.62082660000306,364.6207210000139,364.60376259998884,365.1036882000044,365.088604999939,365.0886321000289,365.1036882000044,367.1041417999659,367.1041417999659,367.61435659998097,367.58784369996283,367.5878602999728,367.61435659998097,0.01996289996895939,369.6199598000385,369.60468749993015,369.6047103999881,369.6199598000385,369.6199598000385,370.10404659993947,y,0.4675679999636486,None,370.1043359999312,370.11957099998835,371.6190647999756,371.6031621999573,360.10473799996544,360.10473799996544,,,,,,,,,,,,2,001,2023-11-28_23h28.43.911,pitch_toj,2023.2.3,60.06493020847734,2023-11-28 23h28.57.122359 +0530,
audio\set_2\mood_en-IN-Standard-A.wav,audio\set_2\good_en-IN-Standard-A.wav,audio\set_2\wood_en-IN-Standard-A.wav,audio\set_2\brood_en-IN-Standard-A.wav,mood,good,wood,brood,500,3,,,,,0,19,19,3,371.6190647999756,,,,,,,,,,,,,,,,,371.6034858999774,371.6190647999756,371.6190647999756,374.6025081999833,374.6025280000176,374.6184249999933,376.61832220002543,376.61832220002543,377.1178971999325,377.1028610999929,377.10287619999144,377.1178971999325,379.1175341999624,379.1175341999624,379.61774699995294,379.601598200039,379.6016138000414,379.61774699995294,381.6173138000304,381.6173138000304,382.11717159999534,382.1018230000045,382.1018383000046,382.11717159999534,0.5136767999501899,384.1167131999973,384.1021499999333,384.1021730999928,384.1167131999973,384.1167131999973,386.55064599995967,y,2.4194508000509813,None,386.5509926000377,386.5662532999413,388.0659727000166,388.0498958999524,374.6184249999933,374.6184249999933,,,,,,,,,,,,2,001,2023-11-28_23h28.43.911,pitch_toj,2023.2.3,60.06493020847734,2023-11-28 23h28.57.122359 +0530,
audio\set_9\fox_en-IN-Standard-X.wav,audio\set_5\vat_en-IN-Standard-X.wav,audio\set_3\main_en-IN-Standard-X.wav,audio\set_3\train_en-IN-Standard-X.wav,fox,vat,main,rain,800,6,,,,,0,20,20,22,388.0659727000166,,,,,,,,,,,,,,,,,388.0502186999656,388.0659727000166,388.0659727000166,391.04931329993997,391.0493289999431,391.0653068999527,393.06583330000285,393.06583330000285,,393.56554740003776,393.5655602000188,393.58140629995614,395.58217629999854,395.56458050000947,396.0644333999371,396.04909710003994,396.0491310999496,396.0644333999371,398.064959899988,398.064959899988,398.5639401000226,398.5487465999322,398.54877879994456,398.5639401000226,0.81297780002933,400.5633918000385,400.5480726000387,400.54812169994693,400.5633918000385,400.5633918000385,401.14834660000633,n,0.5820428000297397,None,401.1486335999798,401.16342540003825,402.6631141999969,402.64718640001956,391.0653068999527,391.0653068999527,,,,,,,,,,,,2,001,2023-11-28_23h28.43.911,pitch_toj,2023.2.3,60.06493020847734,2023-11-28 23h28.57.122359 +0530,
audio\set_0\sleet_en-IN-Standard-X.wav,audio\set_6\plea_en-IN-Standard-X.wav,audio\set_6\dee_en-IN-Standard-X.wav,audio\set_10\fly_en-IN-Standard-X.wav,sleet,plea,dee,fly,600,5,,,,,0,21,21,21,402.6631141999969,,,,,,,,,,,,,,,,,402.6474771000212,402.6631141999969,402.6631141999969,405.6466009999858,405.6466157999821,405.6624632999301,407.6629221999319,407.6629221999319,408.16212660004385,408.1467402999988,408.1467558000004,408.16212660004385,410.16234879998956,410.16234879998956,410.6615603000391,410.64629509998485,410.64631039998494,410.6615603000391,412.66189680004027,412.66189680004027,413.18098639999516,413.1460989000043,413.1461144000059,413.18098639999516,0.6128457000013441,415.1939427999314,415.17803199996706,415.178054900025,415.1939427999314,415.1939427999314,419.79530260001775,y,4.587622899911366,None,419.79566139995586,419.8097139999736,421.3094878999982,421.2944143000059,405.6624632999301,405.6624632999301,,,,,,,,,,,,2,001,2023-11-28_23h28.43.911,pitch_toj,2023.2.3,60.06493020847734,2023-11-28 23h28.57.122359 +0530,
audio\set_6\bee_en-IN-Standard-C.wav,audio\set_6\dee_en-IN-Standard-C.wav,audio\set_6\tree_en-IN-Standard-C.wav,audio\set_6\plea_en-IN-Standard-C.wav,bee,dee,tree,plea,0,0,,,,,0,22,22,8,421.3094878999982,,,,,,,,,,,,,,,,,421.2947777999798,421.3094878999982,421.3094878999982,424.29294169996865,424.2929565999657,424.308786700014,426.30867589998525,426.30867589998525,426.8084049000172,426.79252929997165,426.7925456999801,426.8084049000172,428.80890589999035,428.80890589999035,429.3081022000406,429.29277719999664,429.29279300000053,429.3081022000406,431.30749139992986,431.30749139992986,431.8181357999565,431.79152750002686,431.7915439000353,431.8181357999565,0.017800599918700755,433.8237623999594,433.8077614000067,433.8077835999429,433.8237623999594,433.8237623999594,434.45795970002655,y,0.619447199977003,None,434.4584809000371,434.47363719996065,435.9733185999794,435.9573051999323,424.308786700014,424.308786700014,,,,,,,,,,,,2,001,2023-11-28_23h28.43.911,pitch_toj,2023.2.3,60.06493020847734,2023-11-28 23h28.57.122359 +0530,
audio\set_3\spain_en-IN-Standard-C.wav,audio\set_3\stain_en-IN-Standard-C.wav,audio\set_3\lane_en-IN-Standard-C.wav,audio\set_3\pain_en-IN-Standard-C.wav,spain,stain,lane,pain,200,1,,,,,0,23,23,9,435.9733185999794,,,,,,,,,,,,,,,,,435.95764769997913,435.9733185999794,435.9733185999794,438.9568087999942,438.95682409999426,438.9725169999292,440.97228019998875,440.97228019998875,441.4720671999967,441.4561025999719,441.45611809997354,441.4720671999967,443.4724350000033,443.4724350000033,443.971713899984,443.9557708000066,443.9557865000097,443.971713899984,445.9721056999406,445.9721056999406,446.4747626000317,446.45537159999367,446.4553875999991,446.4747626000317,0.21278169995639473,448.487442499958,448.4715491000097,448.47157149994746,448.487442499958,448.487442499958,451.15495060000103,n,2.655107600032352,None,451.1552344999509,451.1703338000225,452.67000629997347,452.65430860000197,438.9725169999292,438.9725169999292,,,,,,,,,,,,2,001,2023-11-28_23h28.43.911,pitch_toj,2023.2.3,60.06493020847734,2023-11-28 23h28.57.122359 +0530,
,,,,,,,,,,,,,,,,,,,,,,,,,,,,,,,,,,,,,,,,,,,,,,,,,,,,,,,,,,,,,,,,,,,,,,,,,,,,,,,,,,452.65440669993404,452.67000629997347,456.66924049996305,456.65328570001293,,,,,,,,
